
Integration time [ms]:   0.500
Averaging Nr. [scans]: 500
Smoothing Nr. [pixels]: 0
Data measured with spectrometer [name]: 7213323SP
Wave   ;Sample   ;Dark     ;Reference
[nm]   ;[counts] ;[counts] ;[counts] 

175.648;  202.208;  197.683;  180.414
176.249;  220.446;  217.645;  201.051
176.850;  219.613;  215.965;  197.041
177.450;  218.212;  214.088;  199.894
178.051;  209.982;  204.974;  190.085
178.652;  208.443;  204.496;  189.195
179.252;  201.125;  199.253;  186.282
179.853;  213.596;  207.818;  191.669
180.453;  202.202;  198.379;  185.031
181.054;  246.667;  241.033;  226.588
181.654;  204.769;  202.884;  188.083
182.255;  225.131;  222.805;  206.883
182.855;  223.053;  219.558;  202.121
183.456;  220.942;  215.479;  200.708
184.056;  204.445;  199.939;  185.033
184.656;  186.805;  182.110;  164.643
185.257;  229.962;  224.800;  214.998
185.857;  210.471;  206.867;  191.880
186.457;  230.446;  226.858;  211.614
187.057;  214.088;  209.110;  194.406
187.658;  233.928;  230.777;  216.525
188.258;  241.838;  236.193;  220.940
188.858;  220.115;  214.868;  200.640
189.458;  217.229;  212.399;  198.052
190.058;  207.255;  203.049;  188.358
190.658;  212.452;  207.702;  194.493
191.258;  231.393;  225.749;  212.779
191.858;  225.296;  222.323;  207.622
192.458;  224.631;  220.269;  206.770
193.058;  226.190;  222.656;  207.841
193.658;  215.704;  211.130;  199.942
194.258;  233.620;  228.744;  218.472
194.858;  201.459;  194.962;  184.097
195.458;  208.611;  203.094;  189.176
196.057;  220.550;  218.914;  202.533
196.657;  197.960;  194.922;  181.286
197.257;  194.757;  192.795;  180.080
197.857;  227.084;  223.921;  210.197
198.456;  196.550;  191.579;  179.072
199.056;  223.061;  219.355;  206.441
199.656;  212.063;  209.611;  194.867
200.255;  202.921;  199.058;  185.670
200.855;  218.448;  215.589;  202.080
201.454;  209.939;  207.800;  195.434
202.054;  211.353;  208.469;  195.645
202.653;  208.462;  203.167;  189.896
203.253;  198.829;  193.771;  181.206
203.852;  211.288;  207.305;  195.949
204.452;  242.408;  238.979;  226.293
205.051;  185.390;  182.482;  170.599
205.650;  194.136;  190.702;  177.581
206.250;  223.022;  217.404;  205.331
206.849;  197.816;  194.641;  183.435
207.448;  207.772;  204.036;  191.637
208.047;  197.210;  192.702;  180.242
208.647;  198.336;  196.128;  182.976
209.246;  190.340;  186.374;  174.426
209.845;  219.281;  217.616;  203.273
210.444;  199.950;  197.238;  184.524
211.043;  233.870;  231.358;  219.523
211.642;  202.043;  197.949;  184.227
212.241;  213.203;  208.197;  196.408
212.840;  208.893;  204.170;  191.061
213.439;  194.754;  190.485;  179.735
214.038;  193.313;  190.287;  178.889
214.637;  209.170;  206.195;  196.183
215.236;  191.069;  186.615;  175.860
215.835;  212.087;  207.780;  195.308
216.434;  179.518;  175.715;  164.475
217.032;  187.610;  182.988;  173.835
217.631;  192.093;  187.919;  178.008
218.230;  203.393;  197.257;  187.688
218.829;  193.228;  189.591;  179.547
219.427;  189.291;  185.769;  177.218
220.026;  182.257;  178.870;  168.913
220.624;  188.982;  183.054;  174.999
221.223;  198.678;  194.534;  185.496
221.822;  205.151;  200.016;  189.660
222.420;  181.429;  177.406;  168.935
223.019;  196.895;  191.673;  182.327
223.617;  186.581;  180.789;  175.421
224.216;  206.039;  202.384;  195.708
224.814;  200.150;  196.644;  190.209
225.412;  198.598;  193.816;  189.807
226.011;  184.455;  180.303;  175.050
226.609;  187.713;  183.191;  178.854
227.207;  188.954;  182.609;  178.313
227.806;  214.969;  209.659;  205.112
228.404;  181.343;  176.535;  172.708
229.002;  187.734;  183.732;  181.048
229.600;  192.002;  186.831;  183.766
230.198;  215.714;  212.788;  211.512
230.796;  174.091;  172.459;  172.378
231.395;  172.265;  167.527;  169.722
231.993;  192.268;  189.031;  189.251
232.591;  217.099;  213.322;  217.599
233.189;  188.663;  184.788;  188.513
233.787;  199.719;  194.074;  202.434
234.384;  187.519;  181.155;  190.099
234.982;  192.772;  188.370;  196.074
235.580;  194.532;  190.641;  201.586
236.178;  206.869;  203.164;  212.456
236.776;  193.737;  190.734;  202.247
237.374;  206.878;  202.039;  218.441
237.972;  211.043;  207.823;  224.600
238.569;  211.062;  208.707;  226.967
239.167;  182.002;  177.277;  198.792
239.765;  202.441;  198.297;  220.862
240.362;  189.068;  187.444;  212.675
240.960;  217.662;  215.541;  243.349
241.557;  187.034;  180.621;  211.808
242.155;  192.402;  188.495;  223.065
242.753;  213.501;  209.558;  246.418
243.350;  189.192;  184.457;  226.927
243.947;  200.579;  197.453;  243.754
244.545;  214.719;  210.773;  259.178
245.142;  206.708;  204.869;  258.872
245.740;  225.647;  221.294;  280.750
246.337;  197.124;  193.819;  260.989
246.934;  212.232;  208.512;  283.881
247.532;  165.302;  161.671;  263.537
248.129;  206.399;  204.375;  330.762
248.726;  194.966;  191.827;  312.884
249.323;  200.056;  195.661;  307.340
249.920;  188.559;  185.700;  313.021
250.518;  204.506;  202.239;  364.988
251.115;  204.971;  202.663;  413.921
251.712;  222.946;  215.433;  535.383
252.309;  176.140;  173.703; 1116.602
252.906;  202.272;  199.480;12306.623
253.503;  170.615;  165.641;38070.578
254.100;  210.841;  206.328;33115.004
254.697;  178.758;  176.536; 7397.543
255.294;  215.907;  212.377;  779.898
255.890;  199.637;  196.303;  427.893
256.487;  182.226;  179.333;  337.986
257.084;  187.378;  184.927;  312.391
257.681;  204.370;  200.782;  307.577
258.278;  199.579;  196.473;  290.710
258.874;  204.730;  201.035;  281.589
259.471;  189.825;  188.466;  256.904
260.068;  194.346;  192.447;  258.984
260.664;  173.789;  170.832;  230.508
261.261;  221.774;  218.189;  273.389
261.857;  214.788;  210.572;  260.153
262.454;  191.511;  187.782;  231.401
263.050;  190.606;  186.571;  230.199
263.647;  191.353;  188.336;  226.449
264.243;  207.364;  202.699;  241.350
264.840;  217.982;  213.486;  281.498
265.436;  197.409;  193.797;  273.867
266.032;  191.131;  186.432;  231.179
266.629;  182.964;  177.934;  197.785
267.225;  195.985;  193.778;  211.605
267.821;  176.770;  173.370;  187.883
268.418;  183.701;  182.152;  194.649
269.014;  185.304;  182.224;  194.558
269.610;  197.740;  192.776;  204.840
270.206;  198.227;  195.282;  207.045
270.802;  216.657;  214.141;  224.414
271.398;  179.149;  175.081;  183.775
271.994;  213.732;  210.252;  218.373
272.590;  172.452;  166.909;  177.199
273.186;  181.218;  178.471;  186.254
273.782;  170.434;  165.923;  175.177
274.378;  182.954;  179.972;  193.021
274.974;  192.590;  189.235;  212.682
275.570;  194.293;  189.079;  215.124
276.166;  165.800;  162.938;  175.473
276.762;  192.146;  189.276;  200.892
277.357;  190.121;  184.533;  195.657
277.953;  196.228;  192.939;  202.104
278.549;  177.679;  174.476;  183.571
279.144;  197.484;  192.438;  204.050
279.740;  194.555;  191.624;  211.006
280.336;  179.908;  178.278;  207.562
280.931;  217.805;  212.138;  243.101
281.527;  174.999;  171.384;  204.471
282.122;  199.170;  194.235;  242.247
282.718;  188.832;  185.071;  237.668
283.313;  195.765;  191.149;  225.194
283.909;  174.486;  171.666;  189.204
284.504;  203.958;  200.763;  209.412
285.100;  214.168;  209.686;  220.160
285.695;  175.395;  172.610;  181.279
286.290;  199.474;  196.250;  205.333
286.885;  188.046;  184.295;  193.509
287.481;  194.178;  189.418;  198.821
288.076;  208.859;  205.631;  213.941
288.671;  189.475;  186.563;  211.533
289.266;  190.876;  187.128;  238.460
289.861;  189.887;  185.186;  224.048
290.456;  174.668;  169.865;  182.953
291.052;  187.811;  184.759;  190.854
291.647;  180.940;  179.724;  186.464
292.242;  208.947;  205.865;  217.061
292.837;  192.580;  188.679;  198.640
293.431;  199.123;  193.865;  201.754
294.026;  194.352;  189.644;  197.677
294.621;  199.434;  197.008;  205.562
295.216;  181.654;  179.734;  187.902
295.811;  196.750;  191.224;  227.659
296.406;  184.635;  181.169;  618.639
297.000;  200.143;  197.118;  879.669
297.595;  190.708;  187.001;  448.744
298.190;  196.292;  192.858;  234.456
298.785;  191.484;  187.964;  208.659
299.379;  178.451;  173.117;  184.146
299.974;  205.029;  202.172;  207.510
300.568;  191.810;  189.128;  193.837
301.163;  151.106;  146.962;  152.734
301.757;  188.651;  185.294;  237.006
302.352;  189.905;  185.605;  322.268
302.946;  209.237;  204.537;  300.113
303.541;  167.508;  163.525;  188.905
304.135;  172.631;  168.864;  182.352
304.729;  206.559;  202.417;  213.586
305.324;  196.325;  191.368;  200.159
305.918;  174.714;  171.758;  180.386
306.512;  170.920;  165.586;  174.896
307.106;  188.647;  188.126;  194.701
307.701;  169.512;  167.288;  174.665
308.295;  172.282;  168.260;  177.264
308.889;  178.913;  176.771;  185.946
309.483;  140.754;  137.783;  149.281
310.077;  180.203;  176.752;  192.005
310.671;  181.064;  178.269;  194.927
311.265;  166.320;  165.572;  202.344
311.859;  171.670;  169.266;  434.649
312.453;  178.180;  174.607; 1292.883
313.047;  190.116;  185.131; 2220.983
313.641;  182.313;  178.890; 1904.856
314.235;  170.969;  167.954;  905.625
314.828;  197.669;  192.153;  437.262
315.422;  163.939;  162.255;  324.042
316.016;  170.765;  167.211;  288.107
316.610;  166.238;  160.799;  258.543
317.203;  177.523;  175.681;  253.209
317.797;  171.873;  168.255;  232.493
318.391;  177.172;  174.656;  233.203
318.984;  206.850;  203.501;  247.328
319.578;  182.226;  178.731;  216.003
320.171;  181.740;  177.238;  213.990
320.765;  183.925;  179.344;  212.286
321.358;  184.163;  179.572;  202.238
321.952;  182.195;  177.089;  195.718
322.545;  199.799;  198.387;  213.062
323.138;  165.685;  162.543;  181.970
323.732;  168.091;  162.748;  184.904
324.325;  189.222;  185.522;  201.519
324.918;  183.927;  177.634;  192.560
325.512;  180.904;  177.393;  187.946
326.105;  175.330;  170.646;  181.914
326.698;  187.109;  184.766;  193.516
327.291;  181.136;  178.810;  187.224
327.884;  178.131;  172.410;  182.818
328.477;  186.803;  185.315;  198.026
329.070;  193.657;  190.375;  199.266
329.663;  184.049;  180.128;  189.404
330.256;  188.632;  184.049;  192.723
330.849;  194.146;  188.961;  195.784
331.442;  189.038;  186.173;  189.246
332.035;  189.011;  186.052;  189.683
332.628;  178.341;  173.502;  174.903
333.221;  187.812;  185.986;  195.090
333.814;  192.702;  189.557;  235.574
334.406;  195.088;  190.180;  249.291
334.999;  204.754;  200.475;  222.102
335.592;  189.759;  185.839;  182.714
336.184;  199.249;  195.252;  190.339
336.777;  178.790;  175.131;  169.251
337.370;  182.938;  180.818;  174.332
337.962;  237.691;  235.923;  229.099
338.555;  209.787;  205.206;  200.760
339.147;  198.730;  192.952;  187.809
339.740;  186.603;  181.930;  176.051
340.332;  183.696;  180.569;  172.264
340.925;  195.610;  192.879;  185.726
341.517;  189.483;  185.817;  179.138
342.109;  184.590;  181.030;  175.982
342.702;  173.878;  168.867;  162.731
343.294;  189.706;  188.116;  180.213
343.886;  179.735;  175.320;  166.492
344.478;  190.999;  186.934;  181.187
345.071;  166.150;  163.745;  158.639
345.663;  196.301;  193.186;  186.801
346.255;  181.981;  178.872;  171.893
346.847;  195.912;  190.945;  184.557
347.439;  172.600;  170.916;  164.301
348.031;  183.030;  179.558;  173.428
348.623;  202.240;  197.716;  191.544
349.215;  176.600;  173.047;  170.085
349.807;  187.721;  185.838;  180.710
350.399;  176.072;  171.235;  168.015
350.991;  171.388;  167.261;  164.370
351.582;  182.177;  177.414;  175.213
352.174;  158.069;  153.256;  150.727
352.766;  179.473;  177.949;  175.698
353.358;  189.928;  184.312;  184.777
353.949;  191.100;  186.200;  183.532
354.541;  167.686;  164.181;  164.695
355.133;  187.459;  184.848;  185.178
355.724;  190.839;  186.585;  189.178
356.316;  180.033;  176.480;  179.394
356.907;  198.598;  195.569;  198.581
357.499;  181.155;  177.921;  181.332
358.090;  177.085;  172.485;  175.948
358.682;  181.106;  176.748;  182.453
359.273;  189.831;  187.178;  193.575
359.865;  199.101;  195.699;  201.175
360.456;  168.275;  165.593;  174.085
361.047;  184.708;  180.249;  190.340
361.638;  178.929;  173.211;  185.086
362.230;  185.035;  179.727;  194.651
362.821;  176.142;  172.934;  192.502
363.412;  182.091;  178.432;  207.875
364.003;  188.418;  185.324;  353.780
364.594;  195.676;  191.075; 1486.313
365.185;  173.457;  170.520; 2522.935
365.776;  193.603;  191.720; 1660.725
366.367;  180.036;  177.047;  731.492
366.958;  182.250;  178.659;  397.552
367.549;  192.599;  189.223;  244.913
368.140;  190.400;  186.535;  214.336
368.731;  196.801;  194.315;  218.072
369.322;  201.162;  199.381;  217.455
369.913;  194.006;  190.716;  209.941
370.504;  202.238;  199.590;  219.302
371.094;  187.123;  182.756;  202.742
371.685;  182.454;  176.735;  198.902
372.276;  174.680;  172.751;  193.164
372.866;  210.732;  206.395;  229.204
373.457;  178.619;  175.696;  198.627
374.048;  198.496;  195.278;  218.578
374.638;  198.460;  195.011;  220.031
375.229;  189.629;  186.462;  210.680
375.819;  208.524;  204.197;  231.757
376.410;  202.472;  199.413;  227.311
377.000;  201.930;  198.094;  229.443
377.590;  194.641;  189.546;  220.777
378.181;  195.203;  192.226;  222.855
378.771;  191.284;  188.290;  221.661
379.361;  183.061;  178.893;  215.856
379.952;  199.938;  200.489;  236.560
380.542;  197.659;  194.540;  233.047
381.132;  210.553;  205.937;  245.947
381.722;  178.484;  174.887;  217.145
382.312;  210.854;  208.053;  250.810
382.902;  193.187;  190.252;  235.621
383.492;  240.165;  236.857;  281.132
384.082;  182.144;  177.879;  226.846
384.672;  209.283;  204.203;  252.682
385.262;  202.305;  198.383;  250.489
385.852;  186.396;  182.382;  233.966
386.442;  200.124;  196.093;  250.247
387.032;  212.733;  207.860;  264.478
387.622;  174.017;  170.822;  228.198
388.212;  208.505;  205.125;  263.020
388.801;  192.064;  185.000;  246.997
389.391;  195.312;  190.440;  253.348
389.981;  193.235;  189.687;  255.753
390.570;  193.164;  188.109;  255.437
391.160;  196.930;  195.773;  261.714
391.750;  207.461;  205.163;  269.716
392.339;  209.106;  203.741;  270.151
392.929;  202.505;  199.892;  268.909
393.518;  176.387;  174.597;  245.097
394.108;  183.527;  179.987;  250.044
394.697;  222.829;  217.863;  289.266
395.286;  203.648;  199.659;  271.052
395.876;  188.430;  186.496;  257.652
396.465;  206.550;  203.619;  273.788
397.054;  191.849;  188.353;  258.016
397.644;  205.825;  200.459;  272.155
398.233;  194.345;  191.506;  265.215
398.822;  196.983;  193.156;  265.767
399.411;  187.172;  184.151;  255.098
400.000;  181.781;  176.271;  252.393
400.589;  203.717;  200.961;  273.690
401.178;  198.846;  195.949;  269.091
401.767;  191.078;  187.841;  262.585
402.356;  205.984;  202.551;  281.319
402.945;  189.068;  183.948;  273.673
403.534;  204.525;  199.953;  388.007
404.123;  191.229;  188.321; 1465.115
404.712;  190.111;  185.234; 2583.144
405.301;  170.110;  167.577; 1466.161
405.890;  184.479;  183.256;  421.434
406.478;  206.929;  203.355;  292.922
407.067;  178.696;  175.244;  287.548
407.656;  201.014;  197.309;  386.657
408.244;  201.980;  198.909;  354.475
408.833;  204.764;  199.129;  276.672
409.422;  179.132;  175.596;  233.595
410.010;  193.902;  190.579;  246.646
410.599;  206.816;  201.558;  254.574
411.187;  175.296;  171.798;  222.268
411.776;  175.341;  172.562;  221.798
412.364;  182.012;  177.678;  225.619
412.952;  189.146;  186.457;  232.970
413.541;  212.023;  209.101;  253.428
414.129;  204.297;  201.659;  245.348
414.717;  188.373;  183.114;  226.540
415.305;  188.212;  184.118;  228.778
415.894;  170.299;  166.843;  208.684
416.482;  189.227;  185.869;  225.226
417.070;  179.352;  174.734;  214.352
417.658;  208.142;  205.018;  243.116
418.246;  194.233;  192.374;  226.683
418.834;  190.395;  187.045;  222.017
419.422;  194.583;  190.227;  226.599
420.010;  198.526;  193.284;  228.959
420.598;  196.495;  191.319;  225.851
421.186;  219.172;  215.850;  246.419
421.774;  173.655;  170.556;  202.087
422.362;  205.785;  200.767;  230.957
422.949;  193.593;  190.591;  218.066
423.537;  211.849;  208.459;  236.024
424.125;  205.835;  199.318;  225.095
424.713;  202.653;  197.891;  224.132
425.300;  209.078;  205.812;  231.290
425.888;  206.996;  205.085;  228.544
426.475;  199.216;  194.885;  220.262
427.063;  193.001;  189.114;  212.383
427.651;  209.307;  202.508;  225.779
428.238;  183.916;  181.764;  202.939
428.825;  197.203;  193.454;  213.653
429.413;  208.764;  203.409;  224.759
430.000;  192.853;  189.126;  211.652
430.588;  226.825;  224.236;  246.183
431.175;  210.732;  205.853;  229.574
431.762;  213.102;  206.650;  230.916
432.349;  220.230;  217.723;  241.614
432.937;  214.866;  212.546;  244.729
433.524;  212.917;  208.540;  258.083
434.111;  220.432;  215.921;  298.172
434.698;  210.716;  206.732;  485.671
435.285;  225.298;  221.639; 2805.055
435.872;  218.485;  214.516; 5150.592
436.459;  221.805;  219.220; 2722.762
437.046;  194.045;  190.688;  540.545
437.633;  212.946;  208.630;  274.666
438.220;  216.039;  211.656;  248.964
438.807;  226.472;  221.284;  253.576
439.394;  202.080;  199.218;  219.764
439.980;  217.236;  215.315;  232.521
440.567;  213.488;  209.464;  225.617
441.154;  208.976;  206.160;  219.055
441.741;  215.122;  211.445;  220.966
442.327;  222.122;  216.907;  227.628
442.914;  215.282;  212.265;  222.203
443.500;  208.340;  204.370;  212.909
444.087;  198.055;  195.231;  202.260
444.674;  233.567;  227.558;  236.318
445.260;  212.757;  208.066;  213.821
445.846;  228.374;  223.914;  229.093
446.433;  212.150;  207.618;  213.253
447.019;  213.410;  208.401;  213.971
447.606;  194.362;  188.137;  193.601
448.192;  218.553;  213.571;  218.236
448.778;  208.422;  204.012;  208.027
449.364;  214.644;  210.460;  212.489
449.951;  206.329;  200.699;  205.296
450.537;  204.121;  197.744;  202.068
451.123;  225.692;  220.680;  224.440
451.709;  190.423;  186.504;  190.035
452.295;  216.936;  210.246;  214.755
452.881;  206.127;  202.638;  204.263
453.467;  190.649;  185.162;  188.234
454.053;  199.387;  195.895;  198.324
454.639;  209.475;  204.624;  209.186
455.225;  224.582;  219.909;  222.695
455.811;  189.742;  184.368;  186.806
456.397;  224.836;  221.243;  221.415
456.982;  200.517;  196.965;  196.557
457.568;  220.627;  213.931;  214.096
458.154;  223.701;  220.259;  220.194
458.739;  208.986;  206.308;  205.667
459.325;  215.230;  210.258;  211.567
459.911;  217.111;  212.480;  209.606
460.496;  215.615;  211.818;  210.124
461.082;  206.330;  202.580;  201.549
461.667;  211.415;  204.009;  203.915
462.253;  213.572;  209.073;  208.184
462.838;  183.094;  179.758;  177.443
463.424;  200.774;  197.853;  197.335
464.009;  202.480;  198.781;  200.154
464.594;  215.693;  210.736;  209.773
465.180;  202.657;  199.435;  196.631
465.765;  209.156;  204.591;  202.098
466.350;  208.006;  204.578;  202.134
466.935;  217.073;  213.739;  211.128
467.520;  226.013;  222.254;  220.402
468.106;  191.834;  186.952;  185.451
468.691;  186.621;  182.640;  178.777
469.276;  178.763;  176.102;  169.570
469.861;  213.351;  211.052;  204.795
470.446;  206.581;  203.680;  198.769
471.031;  187.348;  185.317;  179.928
471.615;  201.514;  196.057;  189.847
472.200;  204.053;  199.606;  194.726
472.785;  238.261;  235.504;  228.835
473.370;  203.318;  199.719;  192.908
473.955;  200.505;  197.398;  192.703
474.539;  161.247;  157.870;  152.162
475.124;  227.585;  224.079;  218.210
475.709;  208.920;  206.084;  199.441
476.293;  212.977;  208.995;  203.200
476.878;  188.157;  183.802;  178.540
477.463;  189.927;  186.775;  179.356
478.047;  196.391;  193.817;  186.478
478.632;  200.424;  196.805;  191.034
479.216;  180.481;  176.957;  170.278
479.800;  206.558;  202.744;  195.363
480.385;  201.666;  196.983;  191.085
480.969;  185.657;  181.273;  174.897
481.553;  197.101;  193.649;  186.205
482.138;  219.661;  216.319;  207.401
482.722;  191.659;  188.926;  182.124
483.306;  188.535;  186.759;  177.897
483.890;  195.156;  190.351;  182.403
484.474;  193.287;  189.825;  182.354
485.058;  185.678;  180.502;  172.672
485.642;  209.949;  203.733;  195.664
486.226;  214.711;  209.627;  200.398
486.810;  206.580;  201.879;  194.241
487.394;  177.786;  173.409;  164.354
487.978;  189.536;  185.165;  176.507
488.562;  217.795;  213.971;  205.349
489.146;  186.360;  184.269;  176.203
489.730;  190.350;  187.643;  179.606
490.314;  190.464;  187.193;  179.772
490.897;  192.265;  188.281;  182.159
491.481;  194.783;  190.553;  192.437
492.065;  208.362;  204.193;  201.679
492.648;  178.546;  174.092;  168.469
493.232;  166.380;  163.432;  155.351
493.815;  201.670;  197.379;  188.929
494.399;  167.082;  162.969;  154.592
494.982;  185.425;  182.439;  173.304
495.566;  167.209;  163.400;  154.804
496.149;  163.530;  160.396;  152.224
496.733;  178.554;  175.179;  165.567
497.316;  201.168;  196.964;  185.987
497.899;  198.840;  194.525;  184.261
498.482;  173.026;  170.031;  161.229
499.066;  178.865;  176.284;  167.574
499.649;  198.398;  196.256;  185.883
500.232;  165.124;  159.822;  150.126
500.815;  175.289;  170.008;  163.825
501.398;  179.597;  174.390;  166.053
501.981;  192.594;  189.139;  178.435
502.564;  206.155;  201.696;  192.690
503.147;  207.214;  200.872;  191.639
503.730;  190.535;  185.442;  175.410
504.313;  192.592;  188.624;  178.659
504.896;  198.836;  195.918;  186.738
505.479;  211.776;  208.890;  199.199
506.061;  197.292;  192.303;  184.710
506.644;  183.854;  180.069;  170.026
507.227;  192.243;  186.302;  176.401
507.810;  200.266;  198.269;  188.977
508.392;  190.250;  186.393;  176.174
508.975;  198.730;  194.818;  185.047
509.557;  207.960;  203.091;  194.375
510.140;  174.612;  170.170;  161.241
510.722;  191.467;  188.486;  177.478
511.305;  200.838;  198.372;  186.041
511.887;  201.467;  196.826;  185.565
512.470;  195.061;  190.606;  181.031
513.052;  191.176;  186.728;  177.585
513.634;  190.715;  187.539;  177.868
514.217;  203.408;  199.475;  189.266
514.799;  201.424;  198.298;  188.139
515.381;  192.551;  188.490;  179.039
515.963;  215.343;  209.215;  200.259
516.545;  185.550;  181.693;  172.391
517.128;  197.779;  192.605;  186.021
517.710;  183.278;  177.592;  169.247
518.292;  181.019;  179.041;  170.914
518.874;  194.330;  190.233;  182.674
519.456;  186.362;  183.000;  174.753
520.037;  190.522;  186.178;  177.625
520.619;  181.239;  176.160;  166.467
521.201;  178.035;  172.954;  162.686
521.783;  193.079;  187.714;  180.553
522.365;  187.727;  185.124;  175.982
522.946;  191.290;  188.405;  177.197
523.528;  176.938;  174.143;  164.834
524.110;  189.674;  186.796;  176.760
524.691;  184.950;  180.637;  170.408
525.273;  186.756;  184.194;  173.546
525.855;  197.237;  192.337;  182.985
526.436;  199.286;  193.715;  182.487
527.018;  206.368;  201.220;  192.145
527.599;  198.733;  193.560;  184.817
528.180;  181.335;  178.594;  168.352
528.762;  211.221;  206.922;  197.754
529.343;  195.126;  192.490;  182.904
529.924;  210.199;  207.366;  199.070
530.506;  200.933;  197.645;  189.082
531.087;  193.825;  188.534;  180.559
531.668;  188.312;  183.724;  176.286
532.249;  208.426;  204.155;  198.863
532.830;  212.129;  206.906;  200.968
533.411;  185.569;  181.774;  175.342
533.992;  211.072;  206.352;  200.241
534.573;  229.600;  225.213;  219.337
535.154;  191.708;  187.017;  181.714
535.735;  185.341;  181.216;  177.698
536.316;  194.398;  187.674;  183.533
536.897;  183.685;  181.163;  173.158
537.478;  198.667;  194.312;  186.764
538.059;  215.460;  210.971;  204.852
538.639;  202.675;  198.888;  193.302
539.220;  193.137;  189.865;  184.206
539.801;  200.152;  194.768;  190.142
540.381;  213.773;  210.447;  205.750
540.962;  183.296;  179.059;  176.155
541.542;  190.434;  186.720;  183.672
542.123;  234.667;  228.588;  228.946
542.703;  178.242;  175.374;  178.319
543.284;  198.035;  193.714;  202.682
543.864;  193.141;  188.745;  204.103
544.445;  241.914;  237.271;  278.849
545.025;  210.392;  206.551;  518.343
545.605;  198.946;  196.182; 3429.565
546.185;  203.884;  200.064; 4874.079
546.766;  197.094;  194.728; 1764.281
547.346;  231.169;  225.797;  398.729
547.926;  206.056;  201.215;  238.837
548.506;  207.175;  204.398;  217.970
549.086;  216.080;  211.314;  218.477
549.666;  216.364;  213.334;  211.654
550.246;  196.578;  194.331;  191.700
550.826;  219.223;  216.293;  213.583
551.406;  207.322;  203.432;  198.861
551.986;  207.605;  201.780;  196.932
552.566;  207.995;  203.448;  197.915
553.145;  226.448;  222.959;  214.893
553.725;  186.672;  182.458;  174.930
554.305;  215.924;  213.818;  206.191
554.885;  204.349;  200.862;  191.836
555.464;  213.267;  209.193;  201.328
556.044;  204.274;  202.552;  193.265
556.623;  227.924;  223.457;  215.762
557.203;  190.473;  186.816;  178.369
557.783;  214.092;  210.817;  201.259
558.362;  229.082;  224.307;  213.174
558.941;  224.643;  220.658;  212.481
559.521;  199.372;  195.005;  185.274
560.100;  214.851;  209.522;  200.758
560.679;  213.118;  208.493;  200.698
561.259;  233.573;  229.595;  221.469
561.838;  192.363;  189.089;  179.169
562.417;  208.187;  203.696;  194.921
562.996;  213.694;  210.018;  200.683
563.575;  212.683;  205.746;  197.730
564.155;  209.979;  204.472;  196.425
564.734;  214.899;  212.124;  203.546
565.313;  225.702;  222.376;  214.694
565.892;  191.161;  187.768;  180.168
566.471;  201.416;  197.570;  190.334
567.049;  222.714;  219.124;  209.801
567.628;  207.809;  202.638;  193.745
568.207;  200.050;  196.746;  188.234
568.786;  224.701;  220.752;  211.859
569.365;  250.078;  243.026;  236.033
569.943;  202.834;  198.682;  190.086
570.522;  221.690;  217.044;  208.876
571.101;  171.383;  165.848;  157.098
571.679;  211.216;  206.914;  199.348
572.258;  219.183;  213.560;  206.805
572.836;  225.276;  221.351;  213.302
573.415;  201.496;  199.993;  191.510
573.993;  245.565;  240.671;  234.484
574.572;  207.601;  202.475;  198.005
575.150;  240.519;  235.449;  233.762
575.728;  224.113;  218.525;  238.659
576.307;  219.818;  216.150;  581.907
576.885;  194.316;  190.813;  993.686
577.463;  205.907;  201.308;  632.249
578.041;  200.520;  194.989;  314.338
578.619;  198.269;  192.833;  838.586
579.198;  203.808;  199.291; 1006.280
579.776;  209.314;  206.775;  438.584
580.354;  209.749;  205.294;  224.094
580.932;  197.738;  196.232;  193.932
581.510;  212.735;  209.235;  203.406
582.087;  193.132;  188.797;  181.770
582.665;  195.427;  190.552;  181.880
583.243;  198.469;  192.994;  185.282
583.821;  201.381;  196.967;  188.714
584.399;  198.900;  194.007;  186.158
584.976;  195.483;  191.402;  183.929
585.554;  210.280;  203.861;  197.391
586.132;  184.505;  179.295;  170.347
586.709;  205.188;  200.789;  193.534
587.287;  200.319;  196.630;  185.393
587.864;  203.643;  198.047;  189.128
588.442;  163.582;  159.706;  151.278
589.019;  216.270;  213.083;  202.846
589.597;  193.268;  190.031;  180.686
590.174;  207.846;  202.388;  192.297
590.752;  182.467;  178.790;  169.301
591.329;  184.369;  177.961;  171.119
591.906;  193.400;  189.344;  180.134
592.483;  188.723;  184.928;  174.727
593.060;  205.741;  200.349;  191.277
593.638;  200.640;  195.441;  186.123
594.215;  184.608;  182.756;  171.966
594.792;  197.098;  195.487;  184.253
595.369;  199.877;  195.063;  186.634
595.946;  182.744;  178.963;  169.210
596.523;  188.361;  183.533;  174.385
597.100;  197.869;  191.064;  181.543
597.677;  179.004;  175.335;  167.048
598.253;  204.323;  199.545;  191.102
598.830;  183.907;  177.327;  168.230
599.407;  196.561;  192.369;  181.930
599.984;  221.196;  217.776;  207.470
600.560;  212.543;  206.868;  196.510
601.137;  196.615;  193.331;  182.296
601.714;  196.702;  193.595;  185.581
602.290;  184.555;  181.427;  171.919
602.867;  210.331;  206.369;  196.942
603.443;  203.293;  199.681;  189.970
604.020;  195.620;  192.578;  183.106
604.596;  216.701;  213.089;  201.173
605.172;  223.861;  220.208;  208.291
605.749;  213.829;  208.642;  198.867
606.325;  203.953;  200.099;  190.642
606.901;  224.594;  219.698;  211.394
607.477;  213.544;  209.886;  199.325
608.054;  194.695;  189.070;  178.524
608.630;  201.087;  197.172;  186.371
609.206;  190.693;  185.709;  176.448
609.782;  218.897;  215.269;  205.182
610.358;  205.607;  202.268;  191.741
610.934;  211.977;  207.761;  196.171
611.510;  195.174;  189.534;  179.469
612.086;  221.623;  216.353;  207.395
612.662;  205.729;  200.952;  190.107
613.238;  216.805;  212.609;  203.003
613.813;  223.103;  219.274;  206.200
614.389;  218.852;  211.861;  203.399
614.965;  233.312;  230.356;  217.412
615.540;  216.808;  214.199;  201.843
616.116;  226.552;  222.551;  209.965
616.692;  184.212;  178.706;  169.197
617.267;  211.973;  208.499;  196.719
617.843;  193.344;  189.602;  178.833
618.418;  227.143;  223.902;  211.207
618.994;  211.437;  207.310;  195.870
619.569;  229.322;  224.722;  214.600
620.144;  221.226;  216.854;  204.552
620.720;  199.897;  195.478;  183.325
621.295;  223.054;  218.609;  206.934
621.870;  229.847;  226.389;  212.652
622.445;  219.562;  216.036;  204.167
623.021;  193.937;  189.716;  178.127
623.596;  202.503;  201.131;  189.356
624.171;  211.214;  205.801;  194.886
624.746;  220.618;  216.995;  205.327
625.321;  208.894;  203.625;  192.308
625.896;  212.421;  209.615;  198.133
626.471;  225.905;  222.221;  210.485
627.046;  196.567;  192.468;  179.759
627.621;  214.200;  211.457;  196.459
628.195;  233.534;  230.745;  218.249
628.770;  225.928;  223.318;  211.877
629.345;  247.785;  242.716;  231.819
629.920;  203.869;  200.139;  187.490
630.494;  228.360;  223.482;  213.266
631.069;  205.809;  200.776;  188.294
631.643;  204.187;  198.962;  187.824
632.218;  248.245;  242.665;  230.912
632.792;  222.838;  217.081;  206.039
633.367;  227.028;  223.917;  212.526
633.941;  221.960;  217.522;  206.488
634.516;  217.855;  212.818;  199.758
635.090;  233.476;  226.343;  215.253
635.664;  199.941;  193.595;  181.904
636.239;  211.602;  206.818;  196.282
636.813;  252.932;  247.926;  236.037
637.387;  234.347;  230.244;  219.425
637.961;  230.493;  226.615;  214.710
638.535;  233.015;  227.075;  214.657
639.109;  207.929;  205.082;  192.193
639.683;  233.572;  230.787;  218.132
640.257;  217.981;  213.527;  200.830
640.831;  218.359;  215.921;  202.731
641.405;  213.611;  207.735;  195.288
641.979;  216.363;  213.315;  202.609
642.553;  198.607;  192.323;  181.128
643.127;  215.827;  210.921;  198.066
643.700;  233.307;  229.055;  217.215
644.274;  218.756;  214.693;  203.618
644.848;  208.736;  203.901;  194.159
645.421;  215.032;  213.401;  199.911
645.995;  206.922;  202.407;  190.061
646.568;  213.040;  208.313;  196.463
647.142;  218.334;  214.555;  201.200
647.715;  196.868;  192.275;  180.416
648.289;  207.148;  202.247;  192.608
648.862;  234.682;  228.633;  216.710
649.435;  199.558;  195.255;  183.041
650.009;  208.984;  205.453;  193.457
650.582;  219.078;  215.097;  202.430
651.155;  216.690;  212.503;  200.440
651.728;  204.558;  200.037;  187.736
652.302;  222.714;  219.053;  207.431
652.875;  205.582;  201.613;  192.315
653.448;  228.860;  224.455;  212.966
654.021;  202.468;  199.285;  187.624
654.594;  214.294;  208.893;  196.423
655.167;  217.248;  213.279;  201.261
655.740;  202.452;  196.931;  184.871
656.312;  215.304;  209.068;  197.131
656.885;  215.600;  211.098;  199.572
657.458;  221.672;  217.140;  205.138
658.031;  227.009;  224.494;  212.823
658.604;  211.103;  206.882;  194.048
659.176;  225.033;  219.652;  210.082
659.749;  210.467;  204.822;  194.466
660.321;  230.851;  225.492;  212.587
660.894;  209.821;  205.206;  193.109
661.466;  227.425;  223.910;  212.436
662.039;  228.671;  224.456;  212.492
662.611;  211.321;  207.286;  195.400
663.184;  218.925;  213.752;  202.315
663.756;  198.997;  194.940;  181.848
664.328;  223.499;  219.728;  208.590
664.901;  220.133;  215.904;  203.257
665.473;  214.801;  209.138;  197.715
666.045;  204.383;  201.502;  190.679
666.617;  242.763;  236.088;  225.637
667.189;  206.373;  202.196;  192.394
667.761;  200.089;  195.108;  189.455
668.333;  203.225;  200.074;  191.776
668.905;  197.267;  193.468;  180.984
669.477;  209.757;  207.060;  195.022
670.049;  197.133;  194.674;  181.436
670.621;  217.333;  211.946;  200.111
671.193;  214.831;  211.004;  199.468
671.765;  221.566;  217.456;  204.944
672.336;  203.496;  199.432;  187.849
672.908;  212.230;  209.166;  196.127
673.480;  204.682;  200.658;  188.041
674.051;  226.776;  221.264;  210.493
674.623;  220.766;  218.152;  207.026
675.194;  214.310;  211.604;  199.583
675.766;  220.546;  215.482;  203.236
676.337;  193.716;  186.936;  176.251
676.909;  207.132;  203.846;  192.447
677.480;  211.666;  208.856;  196.000
678.052;  210.654;  206.986;  194.424
678.623;  220.302;  217.058;  206.241
679.194;  214.424;  209.516;  199.488
679.765;  208.626;  202.434;  191.219
680.336;  175.980;  171.842;  160.329
680.908;  204.856;  200.050;  189.018
681.479;  208.532;  204.504;  192.089
682.050;  214.238;  210.700;  198.306
682.621;  185.226;  179.440;  167.647
683.192;  202.208;  199.038;  187.455
683.763;  210.884;  206.543;  195.830
684.334;  216.038;  211.093;  199.173
684.904;  192.796;  190.213;  176.952
685.475;  193.364;  189.561;  180.005
686.046;  191.703;  188.365;  177.615
686.617;  210.579;  205.975;  197.183
687.187;  193.035;  187.865;  176.679
687.758;  204.383;  198.229;  187.707
688.329;  204.469;  199.797;  190.216
688.899;  202.577;  199.131;  187.084
689.470;  164.861;  162.161;  148.484
690.040;  190.511;  186.713;  177.908
690.611;  197.165;  194.057;  191.835
691.181;  182.429;  178.479;  172.036
691.751;  223.885;  219.139;  209.598
692.322;  205.499;  200.959;  191.508
692.892;  224.601;  222.367;  209.013
693.462;  209.363;  204.489;  194.434
694.032;  200.281;  195.085;  185.955
694.602;  210.821;  206.497;  198.362
695.173;  205.001;  200.757;  198.056
695.743;  191.823;  190.057;  295.952
696.313;  199.541;  195.867;  526.357
696.883;  210.731;  207.421;  436.680
697.453;  194.855;  189.935;  217.769
698.022;  180.271;  176.325;  171.529
698.592;  182.351;  178.251;  171.783
699.162;  186.585;  184.641;  173.378
699.732;  201.686;  197.615;  185.243
700.302;  189.328;  186.159;  173.389
700.871;  207.314;  202.185;  192.910
701.441;  206.386;  203.345;  190.847
702.011;  199.878;  197.171;  185.005
702.580;  222.670;  218.783;  206.841
703.150;  186.924;  181.709;  172.191
703.719;  207.560;  206.217;  192.738
704.289;  183.898;  179.693;  167.346
704.858;  211.926;  208.513;  199.260
705.427;  207.364;  201.071;  191.919
705.997;  201.614;  197.321;  222.417
706.566;  194.062;  190.973;  262.230
707.135;  187.792;  184.529;  221.456
707.704;  226.642;  223.207;  218.764
708.274;  193.450;  191.251;  179.997
708.843;  190.264;  189.233;  178.009
709.412;  173.598;  170.279;  159.808
709.981;  219.972;  215.901;  204.521
710.550;  193.562;  190.797;  181.279
711.119;  214.892;  211.408;  198.254
711.688;  210.754;  207.192;  194.719
712.257;  210.754;  207.056;  194.505
712.825;  225.820;  222.738;  210.775
713.394;  211.885;  207.774;  195.453
713.963;  223.101;  217.908;  212.738
714.532;  207.335;  203.750;  206.613
715.100;  206.833;  204.568;  202.143
715.669;  189.227;  183.610;  175.208
716.238;  209.467;  205.180;  193.437
716.806;  228.673;  223.400;  211.046
717.375;  210.099;  207.438;  195.090
717.943;  217.593;  214.176;  202.676
718.511;  220.277;  214.966;  203.290
719.080;  203.473;  197.582;  185.101
719.648;  228.513;  223.176;  211.135
720.216;  223.205;  218.916;  206.097
720.785;  215.717;  211.180;  198.790
721.353;  202.605;  198.594;  186.655
721.921;  229.945;  224.814;  214.834
722.489;  216.159;  212.868;  202.874
723.057;  213.191;  209.478;  198.919
723.625;  184.679;  180.576;  168.342
724.193;  226.359;  222.690;  210.839
724.761;  204.565;  199.294;  189.063
725.329;  213.437;  209.332;  199.054
725.897;  234.435;  228.900;  219.058
726.465;  215.699;  210.914;  233.585
727.033;  231.796;  230.558;  315.146
727.600;  175.746;  171.204;  231.534
728.168;  218.048;  214.572;  215.136
728.736;  225.274;  219.480;  209.799
729.303;  209.406;  204.854;  191.518
729.871;  208.442;  203.090;  192.096
730.438;  232.752;  225.510;  216.598
731.006;  221.962;  219.448;  208.547
731.573;  206.092;  200.574;  190.066
732.141;  201.958;  197.870;  186.899
732.708;  203.294;  203.068;  189.752
733.276;  243.270;  237.308;  228.133
733.843;  203.566;  198.608;  185.858
734.410;  200.206;  194.504;  184.891
734.977;  223.284;  218.406;  207.761
735.544;  238.596;  234.098;  221.853
736.112;  205.000;  200.360;  191.575
736.679;  199.170;  194.972;  186.264
737.246;  210.920;  205.674;  210.177
737.813;  220.356;  215.694;  317.032
738.380;  214.322;  209.703;  364.691
738.946;  231.216;  224.689;  282.287
739.513;  225.472;  221.099;  217.624
740.080;  218.168;  215.565;  207.208
740.647;  203.127;  198.615;  188.889
741.214;  219.477;  216.123;  203.778
741.780;  222.183;  218.611;  208.168
742.347;  221.085;  214.655;  203.225
742.914;  233.937;  229.223;  219.878
743.480;  218.823;  214.819;  203.324
744.047;  213.085;  208.949;  196.786
744.613;  219.413;  214.957;  204.593
745.180;  201.455;  196.061;  187.125
745.746;  215.329;  212.163;  201.497
746.312;  242.735;  241.207;  230.891
746.879;  213.643;  209.549;  200.522
747.445;  211.617;  209.579;  201.675
748.011;  242.497;  237.903;  231.329
748.577;  222.545;  218.605;  213.293
749.144;  210.021;  207.779;  226.526
749.710;  211.819;  206.897;  451.231
750.276;  220.055;  213.407;  683.607
750.842;  217.967;  215.461;  549.218
751.408;  204.403;  202.329;  400.206
751.974;  216.959;  212.979;  287.792
752.539;  208.297;  203.619;  213.887
753.105;  207.049;  202.715;  198.839
753.671;  216.115;  213.065;  204.969
754.237;  207.798;  205.483;  196.031
754.803;  235.050;  231.613;  221.209
755.368;  194.268;  189.217;  180.823
755.934;  228.028;  223.817;  215.748
756.500;  219.736;  216.359;  204.941
757.065;  225.476;  220.779;  211.182
757.631;  197.164;  192.859;  183.805
758.196;  202.176;  198.063;  187.333
758.761;  208.418;  203.435;  194.976
759.327;  181.432;  175.777;  168.252
759.892;  206.508;  203.117;  196.370
760.457;  209.194;  203.885;  198.611
761.023;  222.102;  217.905;  212.126
761.588;  204.116;  200.061;  198.304
762.153;  219.782;  217.043;  247.196
762.718;  207.618;  204.811;  649.960
763.283;  197.606;  192.599; 1239.594
763.848;  211.064;  207.597;  891.355
764.413;  214.184;  210.757;  332.429
764.978;  220.694;  217.591;  229.754
765.543;  219.790;  213.694;  213.852
766.108;  213.452;  208.050;  202.867
766.673;  191.988;  187.672;  178.359
767.238;  216.120;  211.618;  202.687
767.802;  204.121;  199.780;  191.715
768.367;  201.403;  200.134;  189.443
768.932;  201.215;  198.706;  189.093
769.496;  210.241;  207.842;  198.465
770.061;  199.989;  197.974;  190.397
770.625;  207.137;  203.488;  199.082
771.190;  204.719;  201.028;  227.151
771.754;  192.473;  188.930;  467.412
772.319;  194.105;  189.670;  655.670
772.883;  210.149;  206.686;  430.088
773.447;  203.243;  199.416;  224.071
774.012;  206.825;  203.372;  198.828
774.576;  203.069;  199.958;  194.013
775.140;  223.101;  218.686;  209.763
775.704;  223.395;  219.066;  210.502
776.268;  215.795;  212.854;  201.405
776.832;  217.743;  215.154;  204.461
777.396;  197.865;  193.360;  181.585
777.960;  199.003;  195.554;  183.867
778.524;  224.517;  220.266;  207.743
779.088;  216.971;  211.674;  201.800
779.652;  218.359;  215.352;  203.406
780.216;  202.825;  197.650;  187.576
780.779;  231.427;  227.142;  214.658
781.343;  231.244;  225.476;  214.646
781.907;  207.514;  203.162;  191.584
782.470;  248.812;  243.388;  232.910
783.034;  227.180;  224.486;  211.398
783.597;  205.116;  201.806;  191.427
784.161;  236.678;  231.792;  220.687
784.724;  208.430;  204.258;  193.537
785.288;  215.876;  214.250;  201.212
785.851;  236.600;  233.318;  220.478
786.414;  220.866;  216.826;  206.244
786.978;  213.794;  208.304;  197.510
787.541;  235.260;  231.490;  218.860
788.104;  210.440;  206.358;  196.332
788.667;  223.196;  219.332;  210.754
789.230;  215.708;  211.116;  198.879
789.793;  227.808;  223.090;  213.134
790.356;  208.286;  203.100;  191.785
790.919;  220.768;  218.200;  206.587
791.482;  209.556;  204.486;  193.516
792.045;  228.826;  228.266;  218.837
792.608;  218.750;  214.767;  203.583
793.171;  223.342;  220.927;  215.509
793.734;  227.922;  225.275;  244.626
794.296;  222.170;  218.971;  356.072
794.859;  235.863;  230.057;  393.666
795.422;  217.215;  214.745;  263.159
795.984;  217.125;  214.167;  211.893
796.547;  207.169;  204.659;  195.486
797.109;  226.673;  221.823;  212.302
797.672;  257.271;  255.899;  245.084
798.234;  198.453;  194.277;  184.555
798.796;  230.543;  229.079;  218.281
799.359;  234.485;  231.113;  232.696
799.921;  226.067;  224.487;  310.328
800.483;  234.001;  230.619;  413.728
801.045;  228.117;  224.183;  422.721
801.607;  226.779;  221.997;  353.586
802.170;  218.447;  215.327;  244.980
802.732;  233.969;  228.971;  224.876
803.294;  201.447;  195.359;  188.525
803.856;  232.251;  226.327;  216.753
804.417;  233.943;  231.997;  221.554
804.979;  250.565;  246.231;  235.995
805.541;  235.681;  230.313;  220.379
806.103;  233.263;  228.521;  216.959
806.665;  265.779;  261.451;  249.895
807.226;  239.415;  234.697;  223.658
807.788;  232.163;  227.005;  216.850
808.350;  240.406;  236.695;  227.824
808.911;  220.022;  216.365;  212.987
809.473;  214.150;  208.821;  264.386
810.034;  225.494;  221.687;  392.351
810.596;  252.660;  249.705;  507.373
811.157;  216.422;  212.847;  629.834
811.718;  252.402;  250.277;  583.026
812.280;  224.138;  220.665;  305.465
812.841;  242.578;  238.371;  245.167
813.402;  254.984;  251.901;  247.112
813.963;  245.220;  242.405;  235.064
814.524;  243.646;  238.799;  230.727
815.086;  231.668;  228.123;  217.536
815.647;  246.956;  244.085;  230.944
816.208;  238.452;  234.379;  222.389
816.769;  241.318;  237.093;  225.660
817.329;  240.670;  235.975;  222.182
817.890;  235.686;  232.345;  219.820
818.451;  269.916;  263.691;  252.643
819.012;  243.922;  240.751;  231.281
819.573;  243.306;  236.438;  224.944
820.133;  239.444;  236.730;  224.373
820.694;  258.278;  255.234;  243.814
821.255;  235.282;  232.642;  220.494
821.815;  226.967;  224.362;  212.805
822.376;  247.021;  243.294;  231.349
822.936;  247.771;  242.338;  232.561
823.496;  244.809;  240.332;  228.708
824.057;  243.409;  239.300;  230.499
824.617;  235.651;  231.682;  223.250
825.177;  269.181;  266.358;  282.566
825.738;  228.795;  222.986;  403.395
826.298;  229.523;  224.614;  526.098
826.858;  231.757;  227.278;  384.641
827.418;  247.697;  243.880;  267.421
827.978;  253.921;  248.502;  242.654
828.538;  240.259;  236.454;  226.714
829.098;  229.351;  226.520;  216.639
829.658;  251.491;  248.924;  237.048
830.218;  232.267;  230.060;  218.789
830.778;  221.127;  218.268;  205.779
831.338;  236.569;  234.158;  221.566
831.897;  249.553;  245.328;  232.594
832.457;  238.437;  232.726;  222.131
833.017;  209.301;  206.458;  193.142
833.576;  244.681;  239.550;  226.969
834.136;  233.055;  228.966;  217.512
834.695;  244.299;  239.942;  228.005
835.255;  211.670;  208.910;  196.137
835.814;  222.492;  218.248;  206.325
836.374;  235.402;  230.352;  216.196
836.933;  246.082;  240.914;  229.202
837.492;  239.530;  234.932;  224.375
838.052;  217.780;  213.084;  201.486
838.611;  226.638;  223.922;  213.059
839.170;  222.958;  220.854;  211.516
839.729;  236.236;  232.244;  251.805
840.288;  243.676;  238.426;  351.164
840.847;  220.304;  217.114;  347.146
841.406;  230.320;  228.878;  322.252
841.965;  230.000;  227.732;  411.688
842.524;  229.590;  226.088;  414.539
843.083;  216.918;  213.058;  272.665
843.642;  222.484;  218.056;  219.877
844.201;  231.292;  226.886;  219.792
844.759;  241.360;  236.364;  227.489
845.318;  196.734;  191.578;  182.083
845.877;  225.222;  221.040;  212.597
846.435;  237.272;  232.877;  221.439
846.994;  250.144;  244.789;  234.014
847.552;  227.690;  223.905;  211.176
848.111;  197.550;  195.659;  184.253
848.669;  225.757;  222.799;  209.677
849.227;  201.679;  201.057;  187.354
849.786;  222.849;  220.753;  207.754
850.344;  230.233;  228.837;  217.249
850.902;  204.987;  199.169;  198.598
851.460;  241.447;  235.603;  284.448
852.019;  242.371;  235.529;  310.051
852.577;  199.085;  195.285;  226.479
853.135;  220.777;  215.433;  212.880
853.693;  222.799;  218.855;  207.591
854.251;  257.595;  253.543;  240.958
854.809;  218.141;  214.547;  201.292
855.367;  220.541;  215.925;  203.110
855.924;  242.615;  238.473;  225.933
856.482;  221.713;  218.247;  204.808
857.040;  244.037;  239.507;  224.937
857.598;  239.177;  235.047;  221.691
858.155;  234.253;  229.687;  217.639
858.713;  245.383;  241.667;  227.251
859.270;  228.085;  223.541;  210.295
859.828;  228.459;  222.499;  211.887
860.385;  224.973;  220.107;  207.988
860.943;  225.999;  219.995;  208.898
861.500;  216.347;  213.501;  202.645
862.057;  233.498;  229.243;  216.264
862.615;  232.172;  228.491;  216.371
863.172;  204.480;  201.549;  187.515
863.729;  239.646;  236.287;  223.272
864.286;  227.910;  223.505;  211.240
864.843;  235.378;  232.181;  219.672
865.400;  236.138;  232.063;  219.038
865.957;  223.428;  218.251;  208.804
866.514;  228.054;  223.819;  222.897
867.071;  238.704;  233.343;  228.737
867.628;  252.258;  247.267;  236.493
868.185;  248.568;  242.239;  229.520
868.742;  248.148;  244.209;  230.043
869.298;  232.020;  227.683;  213.752
869.855;  219.490;  214.587;  201.508
870.412;  256.496;  251.285;  237.917
870.968;  227.546;  224.277;  209.444
871.525;  229.832;  224.255;  212.542
872.081;  252.158;  248.249;  235.584
872.638;  236.018;  232.265;  218.988
873.194;  214.222;  208.654;  195.874
873.751;  224.952;  222.042;  209.072
874.307;  220.176;  216.748;  203.565
874.863;  243.804;  238.240;  226.270
875.420;  255.840;  250.076;  237.359
875.976;  235.268;  230.108;  218.238
876.532;  235.162;  231.986;  218.441
877.088;  250.222;  247.004;  237.172
877.644;  238.188;  233.620;  219.847
878.200;  233.926;  229.102;  217.135
878.756;  248.372;  243.806;  230.433
879.312;  209.610;  204.808;  191.037
879.868;  239.434;  236.264;  225.200
880.424;  235.610;  231.736;  218.426
880.979;  224.996;  220.970;  206.335
881.535;  258.902;  253.636;  239.657
882.091;  235.174;  229.284;  217.616
882.646;  252.172;  246.920;  233.592
883.202;  244.886;  241.090;  227.445
883.758;  245.458;  242.792;  229.491
884.313;  241.146;  237.688;  222.772
884.868;  270.676;  265.868;  252.670
885.424;  233.058;  228.044;  214.634
885.979;  219.206;  216.898;  203.171
886.535;  240.006;  235.792;  221.606
887.090;  250.982;  247.026;  233.277
887.645;  243.068;  236.930;  227.075
888.200;  237.640;  233.012;  219.081
888.755;  234.014;  229.726;  216.553
889.310;  247.366;  241.024;  227.063
889.865;  246.824;  242.028;  226.933
890.420;  234.328;  232.328;  219.404
890.975;  243.154;  238.966;  224.217
891.530;  214.982;  210.620;  198.956
892.085;  251.508;  247.838;  233.343
892.640;  233.422;  229.858;  217.915
893.195;  238.546;  233.786;  221.488
893.749;  222.084;  218.756;  206.559
894.304;  255.592;  250.460;  236.042
894.859;  223.756;  219.018;  205.145
895.413;  260.348;  256.010;  242.484
895.968;  224.388;  219.004;  207.451
896.522;  258.874;  252.352;  244.098
897.077;  243.810;  240.090;  227.097
897.631;  257.008;  252.160;  242.463
898.186;  240.876;  237.738;  221.941
898.740;  260.518;  255.584;  241.964
899.294;  258.432;  252.986;  241.423
899.848;  234.902;  231.076;  217.840
900.402;  240.822;  238.512;  224.623
900.957;  242.224;  239.880;  224.386
901.511;  237.618;  234.410;  221.344
902.065;  244.644;  241.784;  225.298
902.619;  253.686;  248.562;  235.915
903.173;  249.260;  247.278;  232.176
903.726;  251.646;  247.336;  235.707
904.280;  233.776;  230.438;  216.385
904.834;  265.516;  262.388;  249.126
905.388;  219.300;  215.230;  202.872
905.942;  246.044;  243.438;  229.504
906.495;  255.014;  250.714;  239.323
907.049;  236.486;  231.804;  219.363
907.602;  255.308;  249.746;  236.963
908.156;  245.172;  240.688;  228.085
908.709;  247.134;  243.066;  229.913
909.263;  250.730;  247.116;  233.397
909.816;  241.924;  238.972;  227.376
910.369;  247.446;  242.850;  235.399
910.923;  257.272;  252.374;  281.745
911.476;  254.488;  249.994;  481.890
912.029;  228.826;  221.666;  613.633
912.582;  247.124;  240.992;  476.373
913.135;  250.704;  245.590;  301.799
913.688;  271.876;  266.906;  269.488
914.241;  233.018;  229.388;  222.219
914.794;  233.430;  229.618;  218.365
915.347;  250.934;  245.512;  234.392
915.900;  254.258;  252.040;  240.487
916.453;  235.806;  231.188;  218.208
917.006;  252.280;  246.586;  232.894
917.558;  244.578;  239.766;  227.311
918.111;  242.980;  239.880;  226.003
918.664;  239.030;  234.270;  220.789
919.216;  252.774;  247.654;  236.207
919.769;  236.064;  233.812;  221.133
920.321;  242.778;  237.422;  224.244
920.874;  246.324;  240.742;  232.864
921.426;  240.122;  235.578;  250.486
921.978;  227.268;  221.164;  276.799
922.531;  230.248;  225.448;  271.522
923.083;  241.754;  238.006;  245.586
923.635;  242.620;  237.574;  232.794
924.187;  245.548;  241.404;  231.064
924.739;  223.228;  218.530;  211.372
925.292;  274.444;  270.660;  260.667
925.844;  250.830;  246.068;  234.899
926.395;  228.966;  225.272;  212.506
926.947;  232.750;  228.352;  214.402
927.499;  234.474;  228.570;  216.696
928.051;  244.604;  240.268;  226.066
928.603;  228.752;  224.146;  210.903
929.155;  245.318;  240.442;  228.948
929.706;  256.616;  251.878;  238.862
930.258;  235.110;  229.700;  220.145
930.810;  244.410;  239.128;  226.373
931.361;  252.944;  248.920;  235.832
931.913;  260.612;  254.460;  241.662
932.464;  254.724;  251.168;  237.655
933.015;  242.722;  236.728;  224.869
933.567;  228.182;  225.466;  211.497
934.118;  227.554;  224.870;  212.075
934.669;  247.968;  243.122;  232.336
935.221;  239.400;  234.300;  225.680
935.772;  262.200;  256.934;  247.265
936.323;  251.184;  245.832;  233.242
936.874;  251.134;  246.088;  234.404
937.425;  244.768;  240.034;  230.149
937.976;  223.914;  221.624;  211.733
938.527;  239.798;  234.530;  221.566
939.078;  231.358;  226.444;  213.091
939.629;  252.792;  249.546;  233.627
940.179;  261.998;  257.528;  245.398
940.730;  239.526;  235.894;  224.525
941.281;  227.692;  221.900;  210.218
941.831;  234.780;  231.694;  218.300
942.382;  229.610;  224.382;  212.832
942.933;  246.508;  240.182;  228.633
943.483;  245.540;  238.054;  227.078
944.034;  229.086;  224.320;  210.439
944.584;  234.430;  229.588;  217.194
945.134;  228.754;  226.296;  212.387
945.685;  222.974;  217.594;  206.217
946.235;  232.458;  226.874;  213.880
946.785;  232.314;  228.130;  214.171
947.335;  252.950;  246.146;  232.911
947.885;  255.890;  251.440;  238.836
948.435;  234.832;  230.638;  219.284
948.986;  233.970;  231.428;  216.924
949.535;  249.688;  245.916;  230.186
950.085;  231.038;  225.908;  216.219
950.635;  232.084;  228.834;  213.164
951.185;  213.798;  208.498;  195.816
951.735;  205.510;  203.142;  187.208
952.285;  247.344;  242.222;  230.870
952.834;  241.960;  238.118;  222.726
953.384;  260.440;  255.754;  243.581
953.934;  234.466;  231.414;  216.650
954.483;  235.312;  232.288;  219.371
955.033;  242.312;  236.362;  222.641
955.582;  238.020;  234.296;  220.638
956.132;  209.324;  204.590;  192.119
956.681;  220.542;  218.030;  204.813
957.230;  210.542;  205.990;  190.369
957.779;  222.740;  217.254;  204.342
958.329;  202.016;  196.734;  184.908
958.878;  229.132;  223.722;  214.074
959.427;  237.936;  234.464;  220.660
959.976;  224.112;  219.946;  207.110
960.525;  253.394;  247.988;  235.735
961.074;  223.832;  219.846;  205.337
961.623;  268.298;  263.304;  250.070
962.172;  231.810;  226.942;  213.949
962.721;  234.986;  231.850;  217.978
963.269;  237.110;  232.862;  218.272
963.818;  222.012;  218.226;  207.269
964.367;  244.912;  241.352;  240.124
964.916;  227.018;  223.428;  264.450
965.464;  213.266;  209.560;  280.889
966.013;  229.642;  223.176;  262.804
966.561;  239.232;  234.290;  237.515
967.110;  244.004;  238.232;  227.550
967.658;  229.194;  224.506;  213.586
968.206;  225.572;  221.194;  208.194
968.755;  241.858;  238.292;  224.204
969.303;  234.702;  229.898;  216.833
969.851;  252.840;  249.276;  233.361
970.399;  240.498;  235.284;  220.821
970.947;  245.846;  240.344;  226.071
971.495;  242.436;  236.238;  223.994
972.043;  242.780;  239.344;  225.460
972.591;  251.554;  245.646;  233.089
973.139;  245.664;  240.642;  226.225
973.687;  251.262;  248.838;  235.642
974.235;  237.112;  234.914;  220.206
974.783;  234.058;  230.724;  215.873
975.331;  263.916;  258.798;  245.834
975.878;  248.826;  243.380;  229.422
976.426;  244.706;  239.558;  227.200
976.973;  238.188;  234.610;  220.970
977.521;  225.838;  224.698;  212.176
978.068;  275.654;  271.484;  261.140
978.616;  261.890;  258.282;  249.999
979.163;  259.506;  253.904;  245.899
979.711;  229.732;  224.762;  211.338
980.258;  249.032;  244.800;  233.353
980.805;  249.746;  245.312;  230.718
981.352;  272.340;  267.620;  254.809
981.899;  261.824;  257.210;  241.517
982.447;  257.064;  252.556;  240.405
982.994;  261.024;  257.574;  242.664
983.541;  258.068;  254.058;  239.293
984.088;  250.062;  244.496;  231.355
984.634;  247.108;  241.502;  228.448
985.181;  259.996;  255.760;  242.377
985.728;  254.826;  251.302;  235.860
986.275;  242.594;  239.520;  224.967
986.822;  250.694;  247.350;  233.190
987.368;  264.290;  260.144;  246.808
987.915;  255.926;  252.038;  236.652
988.461;  264.772;  259.606;  247.721
989.008;  257.860;  254.104;  237.572
989.554;  258.140;  253.342;  241.214
990.101;  267.240;  263.286;  248.030
990.647;  283.062;  278.376;  262.831
991.193;  252.600;  249.162;  236.217
991.740;  274.326;  269.034;  254.016
992.286;  262.970;  257.546;  243.190
992.832;  273.628;  269.036;  254.085
993.378;  266.632;  264.114;  247.359
993.924;  246.700;  241.934;  226.472
994.470;  235.750;  231.804;  216.807
995.016;  253.928;  249.866;  236.735
995.562;  274.028;  270.780;  256.692
996.108;  263.078;  260.256;  246.882
996.654;  265.264;  262.232;  247.876
997.200;  259.740;  255.966;  240.294
997.746;  258.668;  254.134;  239.437
998.291;  232.670;  230.610;  216.133
998.837;  264.438;  258.390;  245.329
999.382;  263.496;  260.602;  244.812
999.928;  279.292;  277.478;  261.675
1000.473;  275.298;  273.044;  260.831
1001.019;  271.574;  268.500;  253.386
1001.564;  261.042;  254.700;  239.780
1002.110;  249.264;  246.148;  230.445
1002.655;  240.770;  237.264;  223.243
1003.200;  249.064;  246.120;  231.881
1003.745;  283.478;  278.672;  266.036
1004.290;  250.604;  248.106;  233.303
1004.836;  238.508;  233.178;  220.546
1005.381;  243.206;  237.316;  222.859
1005.926;  259.718;  255.640;  241.364
1006.471;  239.466;  235.420;  220.692
1007.015;  246.260;  239.784;  227.662
1007.560;  261.704;  257.922;  242.798
1008.105;  267.792;  262.660;  249.411
1008.650;  227.124;  222.318;  207.079
1009.195;  252.864;  248.174;  236.390
1009.739;  249.814;  244.558;  231.223
1010.284;  251.914;  246.846;  234.215
1010.828;  262.758;  256.796;  242.437
1011.373;  253.736;  248.920;  235.037
1011.917;  253.046;  248.088;  235.208
1012.462;  246.556;  243.278;  230.410
1013.006;  280.490;  275.518;  282.128
1013.550;  249.842;  248.242;  261.377
1014.095;  246.114;  242.904;  247.080
1014.639;  243.304;  239.140;  235.199
1015.183;  242.554;  237.544;  226.875
1015.727;  237.218;  233.712;  221.345
1016.271;  260.018;  254.334;  239.850
1016.815;  251.904;  247.718;  232.899
1017.359;  242.960;  239.060;  224.463
1017.903;  231.662;  227.194;  214.821
1018.447;  228.738;  222.886;  209.010
1018.991;  226.802;  225.508;  213.271
1019.535;  218.374;  215.518;  199.948
1020.078;  244.502;  239.888;  227.485
1020.622;  246.428;  243.754;  229.827
1021.166;  251.048;  246.112;  232.392
1021.709;  249.958;  244.922;  232.866
1022.253;  258.498;  252.864;  239.904
1022.796;  232.418;  227.946;  214.907
1023.339;  231.190;  225.982;  211.512
1023.883;  244.580;  240.410;  224.103
1024.426;  247.326;  242.370;  229.391
1024.969;  251.626;  246.034;  233.233
1025.513;  231.100;  225.702;  213.395
1026.056;  246.626;  243.078;  227.836
1026.599;  251.090;  246.806;  233.723
1027.142;  262.832;  259.498;  244.366
1027.685;  252.544;  248.716;  232.097
1028.228;  247.282;  241.786;  228.253
1028.771;  226.714;  224.746;  212.300
1029.314;  244.486;  239.632;  224.128
1029.857;  234.824;  231.316;  216.083
1030.399;  280.574;  276.636;  262.077
1030.942;  251.118;  248.220;  232.446
1031.485;  259.840;  255.888;  240.883
1032.027;  247.876;  242.974;  227.501
1032.570;  248.922;  245.110;  229.752
1033.112;  242.358;  238.750;  224.720
1033.655;  236.704;  230.494;  213.877
1034.197;  255.178;  249.338;  235.433
1034.740;  251.390;  247.518;  231.019
1035.282;  251.596;  245.496;  231.832
1035.824;  227.786;  223.766;  209.377
1036.367;  241.152;  237.020;  221.872
1036.909;  266.064;  260.400;  248.405
1037.451;  255.380;  252.992;  237.398
1037.993;  245.956;  242.892;  227.965
1038.535;  245.656;  242.900;  229.202
1039.077;  236.128;  230.824;  217.129
1039.619;  234.038;  230.226;  215.711
1040.161;  239.280;  235.180;  220.940
1040.703;  246.542;  241.732;  226.788
1041.244;  261.826;  257.344;  243.321
1041.786;  237.226;  231.410;  217.096
1042.328;  244.000;  240.182;  223.935
1042.869;  235.872;  230.984;  216.620
1043.411;  241.820;  239.320;  221.794
1043.952;  256.042;  249.198;  234.674
1044.494;  220.976;  216.198;  204.268
1045.035;  253.070;  248.830;  234.685
1045.577;  245.812;  240.640;  225.050
1046.118;  270.236;  267.088;  256.429
1046.659;  255.664;  250.240;  239.465
1047.201;  236.184;  233.858;  220.647
1047.742;  273.984;  269.580;  252.264
1048.283;  248.998;  247.858;  234.715
1048.824;  269.836;  264.076;  249.899
1049.365;  271.046;  268.210;  252.537
1049.906;  259.584;  255.856;  240.839
1050.447;  252.012;  247.596;  233.443
1050.988;  271.572;  267.468;  253.565
1051.529;  277.522;  272.998;  258.198
1052.069;  250.284;  246.936;  231.546
1052.610;  249.990;  249.548;  231.951
1053.151;  260.088;  257.070;  242.976
1053.691;  254.198;  249.790;  236.380
1054.232;  258.538;  255.562;  241.171
1054.772;  275.334;  269.968;  255.399
1055.313;  258.658;  254.734;  239.084
1055.853;  250.706;  245.812;  232.209
1056.394;  250.496;  246.866;  231.936
1056.934;  257.394;  253.358;  240.459
1057.474;  269.002;  266.214;  250.912
1058.014;  266.300;  262.518;  248.715
1058.555;  261.650;  258.206;  246.950
1059.095;  263.544;  260.550;  246.105
1059.635;  272.880;  267.892;  252.957
1060.175;  283.610;  280.858;  266.822
1060.715;  249.856;  246.534;  231.876
1061.255;  262.414;  258.918;  243.753
1061.794;  261.614;  256.866;  243.820
1062.334;  254.884;  250.348;  237.818
1062.874;  287.310;  281.650;  267.178
1063.414;  266.302;  261.278;  245.913
1063.953;  271.924;  267.220;  253.445
1064.493;  253.034;  248.204;  236.618
1065.033;  309.734;  306.752;  291.184
1065.572;  284.310;  279.330;  263.442
1066.112;  263.852;  260.474;  245.700
1066.651;  262.478;  257.862;  242.225
1067.190;  277.388;  273.988;  258.730
1067.730;  285.752;  282.718;  267.504
1068.269;  253.530;  250.394;  236.573
1068.808;  260.148;  258.104;  242.997
1069.347;  286.352;  282.446;  267.481
1069.886;  253.616;  247.720;  234.383
1070.425;  277.808;  273.648;  259.943
1070.964;  274.562;  270.360;  254.939
1071.503;  272.712;  269.682;  253.966
1072.042;  269.024;  266.368;  249.432
1072.581;  274.020;  271.480;  255.917
1073.120;  282.334;  280.586;  266.714
1073.659;  256.052;  252.652;  237.410
1074.197;  259.208;  256.398;  248.196
1074.736;  272.772;  268.440;  253.551
1075.274;  259.112;  254.912;  243.897
1075.813;  262.796;  256.892;  243.029
1076.352;  267.136;  265.686;  249.120
1076.890;  270.160;  266.802;  251.325
1077.428;  288.666;  283.162;  267.999
1077.967;  275.602;  271.274;  256.720
1078.505;  270.564;  265.878;  252.985
1079.043;  262.062;  258.402;  242.128
1079.581;  267.848;  264.592;  249.444
1080.119;  264.372;  259.472;  245.012
1080.658;  278.680;  273.180;  260.419
1081.196;  255.164;  251.436;  239.541
1081.734;  252.766;  247.878;  233.654
1082.272;  272.588;  268.220;  252.998
1082.809;  272.618;  270.046;  257.378
1083.347;  268.920;  264.674;  248.599
1083.885;  267.712;  263.816;  248.179
1084.423;  279.794;  278.852;  265.394
1084.960;  259.390;  255.552;  241.314
1085.498;  269.812;  266.052;  249.738
1086.036;  265.176;  261.406;  246.985
1086.573;  291.270;  287.658;  271.691
1087.111;  268.804;  265.916;  249.705
1087.648;  258.992;  257.090;  240.281
1088.185;  284.100;  280.006;  264.683
1088.723;  266.656;  261.694;  249.220
1089.260;  258.526;  255.850;  240.830
1089.797;  252.742;  250.232;  235.334
1090.334;  289.604;  285.048;  273.528
1090.871;  247.384;  244.808;  227.543
1091.408;  249.874;  247.878;  233.488
1091.945;  269.256;  265.970;  250.943
1092.482;  280.482;  278.078;  263.655
1093.019;  253.464;  249.224;  235.415
1093.556;  273.370;  269.158;  254.412
1094.093;  247.948;  244.508;  229.661
1094.630;  247.966;  244.594;  230.537
1095.166;  255.170;  251.004;  236.861
1095.703;  268.644;  266.560;  250.037
1096.240;  257.380;  252.678;  237.502
1096.776;  254.050;  250.382;  234.609
1097.313;  256.188;  251.512;  237.279
1097.849;  261.786;  260.126;  243.933
1098.385;  247.600;  244.714;  227.157
1098.922;  260.264;  256.796;  243.537
1099.458;  267.164;  263.460;  249.128
1099.994;  259.998;  253.648;  239.172
1100.530;  263.856;  259.342;  244.501

